Folder: Robinhood_Investment_Web_App/data/popularity_export07-06020

File: TGA.csv
timestamp,users_holding
"2018-05-02 04:54:29",134
"2018-05-05 16:43:50",144
"2018-05-08 09:43:48",143
"2018-05-10 22:43:49",157
"2018-05-13 11:43:48",154
"2018-05-16 00:43:49",147
"2018-05-19 04:43:49",173
"2018-05-21 17:43:49",245
"2018-05-24 07:43:50",320
"2018-05-27 02:43:50",297
"2018-05-30 21:43:50",267
"2018-06-02 10:43:50",273
"2018-06-05 11:43:47",266
"2018-06-08 00:43:52",271
"2018-06-10 13:43:51",260
"2018-06-13 03:43:51",266
"2018-06-15 16:43:52",257
"2018-06-18 05:43:53",255
"2018-06-20 18:43:53",249
"2018-06-23 07:43:54",249
"2018-06-25 20:43:55",247
"2018-06-28 10:43:54",281
"2018-06-30 23:43:54",348
"2018-07-03 12:43:53",366
"2018-07-06 01:43:54",409
"2018-07-08 14:43:54",403
"2018-07-11 03:43:56",507
"2018-07-13 16:43:56",630
"2018-07-16 05:43:56",661
"2018-07-18 18:44:01",570
"2018-07-21 07:44:00",524
"2018-07-24 09:44:00",510
"2018-07-26 23:44:03",475
"2018-07-29 12:44:02",453
"2018-08-01 01:44:02",443
"2018-08-03 14:44:04",417
"2018-08-06 03:44:03",421
"2018-08-08 16:44:06",414
"2018-08-12 04:44:07",402
"2018-08-14 17:44:07",423
"2018-08-17 06:44:06",396
"2018-08-19 19:44:07",398
"2018-08-22 08:44:06",410
"2018-08-25 12:44:06",392
"2018-08-28 01:44:07",389
"2018-08-30 14:44:21",381
"2018-09-02 03:44:21",376
"2018-09-04 16:44:23",370
"2018-09-07 05:44:23",360
"2018-09-09 19:44:19",348
"2018-09-13 02:44:24",392
"2018-09-15 16:44:20",387
"2018-09-18 05:44:20",379
"2018-09-20 19:44:24",358
"2018-09-23 09:44:21",352
"2018-09-25 22:44:22",374
"2018-09-28 11:44:23",361
"2018-10-01 00:44:25",368
"2018-10-03 13:45:38",349
"2018-10-06 02:44:24",326
"2018-10-08 15:44:57",325
"2018-10-11 05:44:20",318
"2018-10-13 18:44:22",309
"2018-10-16 11:44:20",311
"2018-10-19 00:44:24",304
"2018-10-21 13:44:27",300
"2018-10-24 02:44:25",306
"2018-10-26 16:44:24",320
"2018-10-29 05:44:22",318
"2018-10-31 18:44:25",305
"2018-11-03 07:44:23",302
"2018-11-05 20:44:26",302
"2018-11-08 09:44:26",298
"2018-11-10 22:44:27",299
"2018-11-13 11:44:27",300
"2018-11-16 00:44:26",297
"2018-11-18 13:44:26",293
"2018-11-21 03:44:26",306
"2018-11-23 17:44:26",302
"2018-11-26 06:44:26",301
"2018-11-28 19:44:28",304
"2018-12-01 08:44:26",293
"2018-12-03 21:44:27",289
"2018-12-06 10:44:27",288
"2018-12-09 00:44:33",287
"2018-12-11 13:44:32",282
"2018-12-14 02:44:32",277
"2018-12-16 15:44:32",276
"2018-12-19 04:44:35",273
"2018-12-21 18:44:40",270
"2018-12-24 07:44:39",270
"2018-12-26 20:44:38",266
"2018-12-29 09:44:37",268
"2018-12-31 22:44:35",268
"2019-01-03 12:44:35",272
"2019-01-06 01:44:34",267
"2019-01-08 14:44:41",272
"2019-01-11 04:44:36",270
"2019-01-13 17:44:34",270
"2019-01-16 06:44:33",269
"2019-01-18 19:44:33",271
"2019-01-21 08:44:34",271
"2019-01-23 21:44:34",270
"2019-01-31 19:44:45",265
"2019-02-03 08:44:40",268
"2019-02-05 21:44:43",270
"2019-02-09 02:44:44",269
"2019-02-11 15:44:45",269
"2019-02-14 04:44:45",269
"2019-02-16 18:44:46",266
"2019-02-19 07:44:44",266
"2019-02-21 20:44:51",268
"2019-02-24 09:44:46",269
"2019-02-26 22:44:51",270
"2019-03-01 13:44:54",271
"2019-03-06 02:44:50",271
"2019-03-08 17:44:48",272
"2019-03-11 06:44:47",273
"2019-03-13 19:44:49",272
"2019-03-16 08:44:53",268
"2019-03-18 21:44:52",272
"2019-03-21 10:44:50",273
"2019-03-23 23:44:46",278
"2019-03-26 12:44:49",274
"2019-03-29 01:45:06",275
"2019-03-31 14:44:45",274
"2019-04-03 04:44:55",278
"2019-04-05 17:44:49",282
"2019-04-08 06:44:46",282
"2019-04-10 19:44:56",292
"2019-04-13 19:44:53",295
"2019-04-16 08:45:06",297
"2019-04-18 22:44:52",298
"2019-04-21 12:44:50",298
"2019-04-24 01:44:53",301
"2019-04-26 14:44:50",304
"2019-04-29 03:44:50",304
"2019-05-01 16:44:53",300
"2019-05-04 06:45:03",297
"2019-05-06 18:44:56",296
"2019-05-09 07:44:58",296
"2019-05-11 20:44:54",293
"2019-05-14 09:45:00",292
"2019-05-16 22:45:02",293
"2019-05-19 12:44:50",294
"2019-05-22 01:44:48",295
"2019-05-24 14:44:49",295
"2019-05-28 04:44:50",297
"2019-05-30 17:44:51",300
"2019-06-02 06:44:50",299
"2019-06-04 19:44:50",300
"2019-06-07 08:44:52",304
"2019-06-09 21:44:51",301
"2019-06-12 10:44:57",298
"2019-06-14 23:44:57",297
"2019-06-17 13:09:30",297
"2019-06-20 01:44:55",302
"2019-06-22 14:45:01",300
"2019-06-25 03:44:59",299
"2019-06-27 16:44:56",297
"2019-06-30 05:44:57",298
"2019-07-02 19:45:00",300
"2019-07-05 09:44:57",299
"2019-07-07 22:44:58",299
"2019-07-10 11:44:56",307
"2019-07-13 00:44:56",308
"2019-07-15 13:44:59",308
"2019-07-18 02:44:58",312
"2019-07-20 15:44:55",313
"2019-07-23 04:44:58",315
"2019-07-25 17:44:59",316
"2019-07-28 07:44:57",314
"2019-07-30 20:45:00",313
"2019-08-02 09:44:59",308
"2019-08-04 22:44:58",307
"2019-08-07 12:45:01",309
"2019-08-10 01:45:04",312
"2019-08-12 14:45:04",313
"2019-08-15 03:45:03",318
"2019-08-17 18:45:03",318
"2019-08-20 07:44:59",317
"2019-08-22 20:45:08",319
"2019-08-25 09:45:02",326
"2019-08-27 22:45:05",332
"2019-08-30 11:44:58",334
"2019-09-02 19:45:14",334
"2019-09-05 09:45:12",337
"2019-09-08 00:45:15",335
"2019-09-10 13:45:15",334
"2019-09-13 02:45:14",344
"2019-09-15 15:45:09",344
"2019-09-18 04:45:21",343
"2019-09-20 17:45:17",345
"2019-09-23 06:45:12",344
"2019-09-25 20:45:10",348
"2019-09-28 09:45:12",351
"2019-09-30 22:45:09",355
"2019-10-03 13:08:42",365
"2019-10-06 01:45:10",374
"2019-10-08 14:45:09",372
"2019-10-11 03:45:17",372
"2019-10-13 16:45:19",370
"2019-10-16 06:45:13",373
"2019-10-18 20:45:15",391
"2019-10-21 10:45:12",391
"2019-10-24 00:59:08",404
"2019-10-26 13:45:16",411
"2019-10-29 06:45:17",414
"2019-10-31 20:45:16",412
"2019-11-04 02:45:13",412
"2019-11-06 16:45:16",409
"2019-11-09 05:45:20",401
"2019-11-11 18:45:27",402
"2019-11-14 09:45:25",401
"2019-11-17 00:45:19",402
"2019-11-19 14:45:22",408
"2019-11-22 08:45:27",410
"2019-11-24 21:45:17",413
"2019-11-27 22:45:22",420
"2019-12-01 01:45:21",418
"2019-12-04 12:47:45",418
"2019-12-07 02:48:07",415
"2019-12-09 15:47:56",419
"2019-12-12 04:48:14",420
"2019-12-14 18:49:14",415
"2019-12-17 12:48:33",413
"2019-12-20 02:49:15",420
"2019-12-22 17:48:55",416
"2019-12-25 07:48:48",424
"2019-12-27 21:49:46",421
"2019-12-30 11:48:59",421
"2020-01-02 01:49:18",427
"2020-01-04 14:49:00",423
"2020-01-17 03:48:23",437
"2020-01-19 17:48:20",437
"2020-01-22 08:48:30",437
"2020-01-24 22:48:19",440
"2020-01-28 07:48:17",439
"2020-01-30 21:49:01",437
"2020-02-02 10:48:31",437
"2020-02-05 00:49:05",434
"2020-02-07 14:10:19",433
"2020-02-10 02:48:53",433
"2020-02-12 15:49:15",433
"2020-02-15 04:48:42",434
"2020-02-17 17:47:45",434
"2020-02-20 09:48:44",436
"2020-02-22 23:48:23",431
"2020-02-25 12:49:50",431
"2020-02-28 01:49:31",433
"2020-03-01 15:50:47",431
"2020-03-04 16:49:44",435
"2020-03-07 05:52:03",436
"2020-03-09 18:49:01",438
"2020-03-12 08:52:06",447
"2020-03-14 21:52:01",448
"2020-03-18 02:50:37",461
"2020-03-20 16:50:02",460
"2020-03-23 13:50:17",461
"2020-03-26 05:50:15",475
"2020-03-28 18:50:13",511
"2020-03-31 07:50:05",514
"2020-04-02 21:50:00",527
"2020-04-05 11:49:17",537
"2020-04-08 00:48:49",537
"2020-04-10 15:48:29",540
"2020-04-13 04:48:23",540
"2020-04-15 18:47:58",571
"2020-04-18 07:47:56",579
"2020-04-20 21:48:56",584
"2020-04-23 10:47:58",598
"2020-04-25 23:48:09",607
"2020-04-28 12:48:08",617
"2020-05-01 02:48:04",643
"2020-05-03 15:48:08",651
"2020-05-06 04:48:09",661
"2020-05-09 04:48:04",649
"2020-05-11 17:48:15",654
"2020-05-14 12:48:07",648
"2020-05-17 01:48:13",653
"2020-05-19 15:48:01",655
"2020-05-22 04:48:14",653
"2020-05-24 17:48:14",660
"2020-05-27 07:48:11",677
"2020-05-29 20:48:28",685
"2020-06-01 09:48:33",685
"2020-06-03 22:48:11",686
"2020-06-06 11:48:16",732
"2020-06-09 20:49:25",830
"2020-06-12 10:48:31",825
"2020-06-14 23:48:16",822
"2020-06-16 15:48:21",819
"2020-06-19 05:48:12",823
"2020-06-21 18:48:19",819
"2020-06-24 08:48:46",826
"2020-06-26 21:48:22",828
"2020-06-29 10:48:19",828
"2020-07-01 23:48:29",817
"2020-07-04 12:48:33",836
"2020-07-06 08:48:35",836